Interarrival Time (ms)	% Interarrivals	Running Sum	Counts
1.000	0.103	6051	6051
2.000	0.149	8744	2693
3.000	0.318	18625	9881
4.000	0.357	20946	2321
5.000	0.371	21736	790
6.000	0.379	22257	521
7.000	0.386	22620	363
8.000	0.390	22883	263
9.000	0.394	23097	214
10.000	0.397	23271	174
11.000	0.399	23403	132
12.000	0.401	23548	145
13.000	0.404	23697	149
14.000	0.406	23805	108
15.000	0.408	23912	107
16.000	0.409	24012	100
17.000	0.411	24086	74
18.000	0.412	24171	85
19.000	0.414	24262	91
20.000	0.415	24337	75
21.000	0.416	24411	74
22.000	0.417	24488	77
23.000	0.418	24544	56
24.000	0.420	24621	77
25.000	0.421	24692	71
26.000	0.422	24753	61
27.000	0.423	24810	57
28.000	0.424	24869	59
29.000	0.425	24927	58
30.000	0.426	24985	58
31.000	0.427	25041	56
32.000	0.428	25101	60
33.000	0.429	25145	44
34.000	0.429	25190	45
35.000	0.430	25249	59
36.000	0.431	25309	60
37.000	0.432	25359	50
38.000	0.433	25420	61
39.000	0.434	25481	61
40.000	0.435	25531	50
41.000	0.436	25578	47
42.000	0.437	25650	72
43.000	0.438	25712	62
44.000	0.440	25832	120
45.000	0.443	25972	140
46.000	0.445	26114	142
47.000	0.448	26295	181
48.000	0.454	26619	324
49.000	0.488	28651	2032
50.000	0.557	32645	3994
51.000	0.569	33349	704
52.000	0.572	33527	178
53.000	0.574	33654	127
54.000	0.575	33739	85
55.000	0.576	33797	58
56.000	0.577	33842	45
57.000	0.578	33884	42
58.000	0.578	33919	35
59.000	0.579	33986	67
60.000	0.581	34057	71
61.000	0.582	34108	51
62.000	0.582	34149	41
63.000	0.583	34203	54
64.000	0.584	34246	43
65.000	0.585	34299	53
66.000	0.585	34341	42
67.000	0.586	34379	38
68.000	0.587	34417	38
69.000	0.588	34468	51
70.000	0.589	34518	50
71.000	0.589	34560	42
72.000	0.590	34606	46
73.000	0.591	34655	49
74.000	0.591	34691	36
75.000	0.592	34723	32
76.000	0.593	34773	50
77.000	0.593	34806	33
78.000	0.594	34854	48
79.000	0.595	34892	38
80.000	0.596	34943	51
81.000	0.596	34973	30
82.000	0.597	35014	41
83.000	0.598	35056	42
84.000	0.599	35133	77
85.000	0.601	35222	89
86.000	0.603	35346	124
87.000	0.605	35502	156
88.000	0.608	35633	131
89.000	0.611	35817	184
90.000	0.613	35934	117
91.000	0.616	36119	185
92.000	0.619	36330	211
93.000	0.624	36612	282
94.000	0.630	36934	322
95.000	0.634	37165	231
96.000	0.638	37411	246
97.000	0.642	37641	230
98.000	0.645	37844	203
99.000	0.649	38046	202
100.000	0.652	38256	210
101.000	0.656	38448	192
102.000	0.658	38596	148
103.000	0.660	38740	144
104.000	0.662	38853	113
105.000	0.664	38974	121
106.000	0.667	39107	133
107.000	0.669	39214	107
108.000	0.671	39338	124
109.000	0.672	39444	106
110.000	0.675	39581	137
111.000	0.677	39719	138
112.000	0.679	39850	131
113.000	0.682	39999	149
114.000	0.684	40125	126
115.000	0.687	40269	144
116.000	0.690	40444	175
117.000	0.692	40591	147
118.000	0.695	40755	164
119.000	0.698	40939	184
120.000	0.701	41120	181
121.000	0.704	41317	197
122.000	0.707	41488	171
123.000	0.710	41644	156
124.000	0.713	41800	156
125.000	0.715	41930	130
126.000	0.717	42041	111
127.000	0.719	42154	113
128.000	0.720	42259	105
129.000	0.722	42361	102
130.000	0.724	42479	118
131.000	0.726	42583	104
132.000	0.728	42678	95
133.000	0.730	42808	130
134.000	0.732	42916	108
135.000	0.734	43035	119
136.000	0.736	43167	132
137.000	0.738	43275	108
138.000	0.740	43406	131
139.000	0.742	43515	109
140.000	0.744	43622	107
141.000	0.745	43708	86
142.000	0.747	43800	92
143.000	0.748	43891	91
144.000	0.750	43973	82
145.000	0.752	44082	109
146.000	0.753	44176	94
147.000	0.755	44273	97
148.000	0.756	44361	88
149.000	0.758	44447	86
150.000	0.759	44526	79
151.000	0.760	44603	77
152.000	0.761	44662	59
153.000	0.763	44738	76
154.000	0.764	44812	74
155.000	0.765	44888	76
156.000	0.767	44963	75
157.000	0.768	45028	65
158.000	0.769	45098	70
159.000	0.770	45165	67
160.000	0.772	45264	99
161.000	0.773	45350	86
162.000	0.775	45440	90
163.000	0.776	45527	87
164.000	0.777	45596	69
165.000	0.779	45675	79
166.000	0.780	45769	94
167.000	0.782	45853	84
168.000	0.784	45959	106
169.000	0.785	46047	88
170.000	0.787	46148	101
171.000	0.788	46236	88
172.000	0.790	46313	77
173.000	0.792	46440	127
174.000	0.793	46526	86
175.000	0.795	46615	89
176.000	0.796	46690	75
177.000	0.798	46777	87
178.000	0.799	46847	70
179.000	0.800	46919	72
180.000	0.801	46986	67
181.000	0.802	47052	66
182.000	0.804	47133	81
183.000	0.805	47195	62
184.000	0.805	47243	48
185.000	0.806	47301	58
186.000	0.807	47363	62
187.000	0.808	47410	47
188.000	0.809	47461	51
189.000	0.810	47513	52
190.000	0.811	47580	67
191.000	0.812	47639	59
192.000	0.813	47691	52
193.000	0.814	47756	65
194.000	0.815	47814	58
195.000	0.816	47867	53
196.000	0.817	47934	67
197.000	0.818	47984	50
198.000	0.819	48051	67
199.000	0.820	48110	59
200.000	0.821	48179	69
201.000	0.823	48251	72
202.000	0.824	48326	75
203.000	0.825	48399	73
204.000	0.826	48476	77
205.000	0.828	48569	93
206.000	0.829	48641	72
207.000	0.830	48703	62
208.000	0.832	48796	93
209.000	0.833	48871	75
210.000	0.834	48935	64
211.000	0.835	48984	49
212.000	0.836	49023	39
213.000	0.837	49078	55
214.000	0.838	49123	45
215.000	0.838	49161	38
216.000	0.839	49204	43
217.000	0.840	49257	53
218.000	0.841	49305	48
219.000	0.842	49365	60
220.000	0.842	49415	50
221.000	0.843	49451	36
222.000	0.844	49493	42
223.000	0.845	49544	51
224.000	0.845	49589	45
225.000	0.846	49628	39
226.000	0.847	49680	52
227.000	0.848	49731	51
228.000	0.849	49797	66
229.000	0.850	49846	49
230.000	0.851	49908	62
231.000	0.852	49962	54
232.000	0.853	50005	43
233.000	0.853	50054	49
234.000	0.854	50115	61
235.000	0.856	50180	65
236.000	0.856	50237	57
237.000	0.857	50290	53
238.000	0.858	50338	48
239.000	0.859	50400	62
240.000	0.860	50453	53
241.000	0.861	50512	59
242.000	0.862	50579	67
243.000	0.863	50641	62
244.000	0.864	50706	65
245.000	0.865	50752	46
246.000	0.866	50806	54
247.000	0.867	50860	54
248.000	0.868	50915	55
249.000	0.869	50963	48
250.000	0.870	51008	45
251.000	0.870	51056	48
252.000	0.871	51108	52
253.000	0.872	51155	47
254.000	0.873	51206	51
255.000	0.874	51249	43
256.000	0.874	51289	40
257.000	0.875	51334	45
258.000	0.876	51382	48
259.000	0.877	51425	43
260.000	0.878	51472	47
261.000	0.878	51520	48
262.000	0.879	51567	47
263.000	0.880	51605	38
264.000	0.880	51642	37
265.000	0.881	51675	33
266.000	0.882	51709	34
267.000	0.882	51753	44
268.000	0.883	51779	26
269.000	0.884	51829	50
270.000	0.884	51873	44
271.000	0.885	51922	49
272.000	0.886	51954	32
273.000	0.887	52006	52
274.000	0.887	52052	46
275.000	0.888	52100	48
276.000	0.889	52139	39
277.000	0.890	52173	34
278.000	0.890	52213	40
279.000	0.891	52245	32
280.000	0.891	52281	36
281.000	0.892	52318	37
282.000	0.893	52349	31
283.000	0.893	52393	44
284.000	0.894	52428	35
285.000	0.895	52472	44
286.000	0.895	52515	43
287.000	0.896	52553	38
288.000	0.897	52597	44
289.000	0.897	52638	41
290.000	0.898	52674	36
291.000	0.899	52713	39
292.000	0.899	52748	35
293.000	0.900	52782	34
294.000	0.900	52804	22
295.000	0.901	52848	44
296.000	0.902	52884	36
297.000	0.902	52925	41
298.000	0.903	52963	38
299.000	0.904	53013	50
300.000	0.904	53046	33
301.000	0.905	53084	38
302.000	0.906	53137	53
303.000	0.906	53165	28
304.000	0.907	53199	34
305.000	0.908	53240	41
306.000	0.908	53266	26
307.000	0.909	53310	44
308.000	0.910	53346	36
309.000	0.910	53389	43
310.000	0.911	53423	34
311.000	0.912	53466	43
312.000	0.912	53502	36
313.000	0.913	53543	41
314.000	0.914	53581	38
315.000	0.914	53623	42
316.000	0.915	53657	34
317.000	0.915	53686	29
318.000	0.916	53719	33
319.000	0.916	53747	28
320.000	0.917	53779	32
321.000	0.917	53803	24
322.000	0.918	53824	21
323.000	0.918	53847	23
324.000	0.918	53873	26
325.000	0.919	53896	23
326.000	0.919	53931	35
327.000	0.920	53970	39
328.000	0.921	54014	44
329.000	0.922	54061	47
330.000	0.923	54110	49
331.000	0.923	54134	24
332.000	0.923	54156	22
333.000	0.924	54170	14
334.000	0.924	54185	15
335.000	0.924	54198	13
336.000	0.924	54211	13
337.000	0.924	54221	10
338.000	0.925	54238	17
339.000	0.925	54255	17
340.000	0.925	54268	13
341.000	0.925	54277	9
342.000	0.926	54293	16
343.000	0.926	54306	13
344.000	0.926	54328	22
345.000	0.926	54340	12
346.000	0.927	54346	6
347.000	0.927	54364	18
348.000	0.927	54378	14
349.000	0.927	54395	17
350.000	0.928	54414	19
351.000	0.928	54432	18
352.000	0.928	54447	15
353.000	0.929	54471	24
354.000	0.929	54482	11
355.000	0.929	54495	13
356.000	0.929	54513	18
357.000	0.930	54527	14
358.000	0.930	54532	5
359.000	0.930	54543	11
360.000	0.930	54555	12
361.000	0.930	54567	12
362.000	0.930	54577	10
363.000	0.931	54583	6
364.000	0.931	54592	9
365.000	0.931	54601	9
366.000	0.931	54609	8
367.000	0.931	54619	10
368.000	0.931	54626	7
369.000	0.931	54630	4
370.000	0.932	54640	10
371.000	0.932	54652	12
372.000	0.932	54666	14
373.000	0.932	54674	8
374.000	0.932	54686	12
375.000	0.933	54695	9
376.000	0.933	54706	11
377.000	0.933	54714	8
378.000	0.933	54722	8
379.000	0.933	54728	6
380.000	0.933	54744	16
381.000	0.933	54751	7
382.000	0.934	54756	5
383.000	0.934	54762	6
384.000	0.934	54771	9
385.000	0.934	54781	10
386.000	0.934	54785	4
387.000	0.934	54799	14
388.000	0.934	54803	4
389.000	0.935	54813	10
390.000	0.935	54821	8
391.000	0.935	54829	8
392.000	0.935	54834	5
393.000	0.935	54848	14
394.000	0.935	54852	4
395.000	0.935	54861	9
396.000	0.936	54874	13
397.000	0.936	54881	7
398.000	0.936	54889	8
399.000	0.936	54907	18
400.000	0.936	54920	13
401.000	0.937	54937	17
402.000	0.937	54951	14
403.000	0.937	54964	13
404.000	0.937	54984	20
405.000	0.938	54998	14
406.000	0.938	55017	19
407.000	0.938	55031	14
408.000	0.938	55040	9
409.000	0.939	55047	7
410.000	0.939	55051	4
411.000	0.939	55057	6
412.000	0.939	55063	6
413.000	0.939	55070	7
414.000	0.939	55074	4
415.000	0.939	55081	7
416.000	0.939	55091	10
417.000	0.939	55097	6
418.000	0.939	55103	6
419.000	0.940	55109	6
420.000	0.940	55117	8
421.000	0.940	55124	7
422.000	0.940	55132	8
423.000	0.940	55138	6
424.000	0.940	55144	6
425.000	0.940	55152	8
426.000	0.940	55163	11
427.000	0.941	55173	10
428.000	0.941	55183	10
429.000	0.941	55194	11
430.000	0.941	55203	9
431.000	0.941	55218	15
432.000	0.942	55233	15
433.000	0.942	55241	8
434.000	0.942	55251	10
435.000	0.942	55261	10
436.000	0.942	55276	15
437.000	0.943	55288	12
438.000	0.943	55298	10
439.000	0.943	55305	7
440.000	0.943	55312	7
441.000	0.943	55321	9
442.000	0.943	55334	13
443.000	0.943	55339	5
444.000	0.944	55344	5
445.000	0.944	55345	1
446.000	0.944	55353	8
447.000	0.944	55361	8
448.000	0.944	55370	9
449.000	0.944	55386	16
450.000	0.945	55405	19
451.000	0.945	55418	13
452.000	0.945	55436	18
453.000	0.945	55449	13
454.000	0.946	55467	18
455.000	0.946	55480	13
456.000	0.946	55492	12
457.000	0.946	55506	14
458.000	0.946	55514	8
459.000	0.947	55518	4
460.000	0.947	55525	7
461.000	0.947	55531	6
462.000	0.947	55535	4
463.000	0.947	55546	11
464.000	0.947	55554	8
465.000	0.947	55560	6
466.000	0.947	55564	4
467.000	0.947	55569	5
468.000	0.948	55576	7
469.000	0.948	55581	5
470.000	0.948	55586	5
471.000	0.948	55590	4
472.000	0.948	55594	4
473.000	0.948	55603	9
474.000	0.948	55606	3
475.000	0.948	55612	6
476.000	0.948	55613	1
477.000	0.948	55618	5
478.000	0.948	55624	6
479.000	0.948	55630	6
480.000	0.949	55638	8
481.000	0.949	55640	2
482.000	0.949	55646	6
483.000	0.949	55652	6
484.000	0.949	55658	6
485.000	0.949	55662	4
486.000	0.949	55669	7
487.000	0.949	55675	6
488.000	0.949	55682	7
489.000	0.949	55686	4
490.000	0.950	55694	8
491.000	0.950	55699	5
492.000	0.950	55705	6
493.000	0.950	55716	11
494.000	0.950	55724	8
495.000	0.950	55731	7
496.000	0.950	55740	9
497.000	0.950	55746	6
498.000	0.951	55757	11
499.000	0.951	55768	11
500.000	0.951	55787	19
501.000	0.951	55801	14
502.000	0.952	55814	13
503.000	0.952	55822	8
504.000	0.952	55830	8
505.000	0.952	55845	15
506.000	0.952	55858	13
507.000	0.953	55872	14
508.000	0.953	55885	13
509.000	0.953	55896	11
510.000	0.953	55899	3
511.000	0.953	55903	4
513.000	0.953	55907	4
514.000	0.953	55910	3
515.000	0.953	55916	6
516.000	0.953	55921	5
517.000	0.954	55928	7
518.000	0.954	55935	7
519.000	0.954	55938	3
520.000	0.954	55947	9
521.000	0.954	55949	2
522.000	0.954	55956	7
523.000	0.954	55962	6
524.000	0.954	55963	1
525.000	0.954	55968	5
526.000	0.954	55977	9
527.000	0.954	55981	4
528.000	0.954	55984	3
529.000	0.955	55991	7
530.000	0.955	55992	1
531.000	0.955	55995	3
532.000	0.955	56001	6
533.000	0.955	56006	5
534.000	0.955	56015	9
535.000	0.955	56022	7
536.000	0.955	56032	10
537.000	0.955	56036	4
538.000	0.955	56043	7
539.000	0.956	56048	5
540.000	0.956	56054	6
541.000	0.956	56056	2
542.000	0.956	56063	7
543.000	0.956	56069	6
544.000	0.956	56080	11
545.000	0.956	56091	11
546.000	0.956	56098	7
547.000	0.957	56103	5
548.000	0.957	56115	12
549.000	0.957	56128	13
550.000	0.957	56140	12
551.000	0.957	56158	18
552.000	0.958	56168	10
553.000	0.958	56192	24
554.000	0.958	56207	15
555.000	0.959	56221	14
556.000	0.959	56236	15
557.000	0.959	56247	11
558.000	0.959	56256	9
559.000	0.959	56259	3
560.000	0.959	56263	4
561.000	0.959	56266	3
562.000	0.959	56270	4
563.000	0.959	56273	3
564.000	0.959	56278	5
565.000	0.960	56282	4
566.000	0.960	56285	3
567.000	0.960	56287	2
568.000	0.960	56292	5
569.000	0.960	56298	6
570.000	0.960	56303	5
571.000	0.960	56305	2
572.000	0.960	56308	3
573.000	0.960	56312	4
574.000	0.960	56314	2
575.000	0.960	56319	5
576.000	0.960	56323	4
577.000	0.960	56327	4
578.000	0.960	56330	3
579.000	0.960	56333	3
580.000	0.961	56341	8
581.000	0.961	56343	2
582.000	0.961	56348	5
583.000	0.961	56353	5
584.000	0.961	56360	7
585.000	0.961	56366	6
586.000	0.961	56370	4
587.000	0.961	56375	5
588.000	0.961	56378	3
589.000	0.961	56382	4
590.000	0.961	56386	4
591.000	0.961	56388	2
592.000	0.961	56392	4
593.000	0.961	56395	3
594.000	0.962	56400	5
595.000	0.962	56403	3
596.000	0.962	56405	2
597.000	0.962	56409	4
598.000	0.962	56419	10
599.000	0.962	56430	11
600.000	0.962	56441	11
601.000	0.962	56453	12
602.000	0.963	56465	12
603.000	0.963	56477	12
604.000	0.963	56490	13
605.000	0.963	56502	12
606.000	0.964	56514	12
607.000	0.964	56517	3
608.000	0.964	56522	5
609.000	0.964	56523	1
610.000	0.964	56526	3
611.000	0.964	56532	6
612.000	0.964	56534	2
613.000	0.964	56538	4
614.000	0.964	56543	5
615.000	0.964	56545	2
616.000	0.964	56550	5
617.000	0.964	56552	2
618.000	0.964	56553	1
619.000	0.964	56560	7
620.000	0.964	56564	4
621.000	0.964	56569	5
622.000	0.965	56573	4
623.000	0.965	56577	4
624.000	0.965	56578	1
625.000	0.965	56579	1
626.000	0.965	56581	2
627.000	0.965	56583	2
628.000	0.965	56585	2
629.000	0.965	56587	2
630.000	0.965	56591	4
631.000	0.965	56594	3
632.000	0.965	56595	1
633.000	0.965	56596	1
634.000	0.965	56597	1
635.000	0.965	56600	3
636.000	0.965	56603	3
637.000	0.965	56605	2
638.000	0.965	56607	2
639.000	0.965	56612	5
640.000	0.965	56616	4
641.000	0.965	56619	3
642.000	0.965	56622	3
643.000	0.965	56624	2
644.000	0.965	56626	2
645.000	0.966	56631	5
646.000	0.966	56636	5
647.000	0.966	56638	2
648.000	0.966	56647	9
649.000	0.966	56656	9
650.000	0.966	56659	3
651.000	0.966	56664	5
652.000	0.966	56671	7
653.000	0.966	56679	8
654.000	0.966	56683	4
655.000	0.966	56688	5
656.000	0.967	56696	8
657.000	0.967	56699	3
658.000	0.967	56706	7
659.000	0.967	56709	3
660.000	0.967	56713	4
661.000	0.967	56714	1
662.000	0.967	56717	3
663.000	0.967	56721	4
664.000	0.967	56726	5
665.000	0.967	56728	2
666.000	0.967	56732	4
667.000	0.967	56737	5
668.000	0.967	56738	1
669.000	0.967	56742	4
670.000	0.967	56745	3
671.000	0.967	56746	1
672.000	0.968	56749	3
673.000	0.968	56752	3
674.000	0.968	56753	1
675.000	0.968	56754	1
676.000	0.968	56756	2
677.000	0.968	56758	2
678.000	0.968	56765	7
679.000	0.968	56767	2
681.000	0.968	56769	2
682.000	0.968	56775	6
683.000	0.968	56778	3
684.000	0.968	56780	2
685.000	0.968	56782	2
686.000	0.968	56784	2
687.000	0.968	56787	3
688.000	0.968	56789	2
689.000	0.968	56792	3
691.000	0.968	56794	2
693.000	0.968	56797	3
694.000	0.968	56802	5
695.000	0.968	56803	1
697.000	0.968	56804	1
698.000	0.968	56805	1
699.000	0.969	56809	4
700.000	0.969	56812	3
701.000	0.969	56820	8
702.000	0.969	56822	2
703.000	0.969	56827	5
704.000	0.969	56828	1
705.000	0.969	56832	4
706.000	0.969	56835	3
707.000	0.969	56836	1
708.000	0.969	56837	1
709.000	0.969	56840	3
710.000	0.969	56843	3
711.000	0.969	56846	3
712.000	0.969	56847	1
713.000	0.969	56849	2
714.000	0.969	56852	3
716.000	0.969	56855	3
717.000	0.969	56858	3
718.000	0.969	56864	6
719.000	0.970	56868	4
720.000	0.970	56871	3
721.000	0.970	56873	2
722.000	0.970	56876	3
723.000	0.970	56879	3
724.000	0.970	56880	1
725.000	0.970	56883	3
726.000	0.970	56886	3
727.000	0.970	56889	3
728.000	0.970	56894	5
729.000	0.970	56898	4
730.000	0.970	56901	3
731.000	0.970	56902	1
732.000	0.970	56906	4
733.000	0.970	56909	3
734.000	0.970	56910	1
735.000	0.970	56914	4
736.000	0.970	56917	3
737.000	0.970	56919	2
738.000	0.970	56922	3
739.000	0.971	56924	2
740.000	0.971	56926	2
741.000	0.971	56927	1
742.000	0.971	56929	2
745.000	0.971	56930	1
746.000	0.971	56932	2
748.000	0.971	56936	4
749.000	0.971	56939	3
750.000	0.971	56940	1
751.000	0.971	56943	3
752.000	0.971	56944	1
753.000	0.971	56947	3
755.000	0.971	56949	2
756.000	0.971	56951	2
758.000	0.971	56955	4
759.000	0.971	56956	1
760.000	0.971	56960	4
761.000	0.971	56965	5
762.000	0.971	56968	3
764.000	0.971	56970	2
765.000	0.971	56974	4
766.000	0.971	56975	1
767.000	0.971	56977	2
768.000	0.971	56978	1
769.000	0.971	56980	2
770.000	0.971	56982	2
771.000	0.972	56983	1
772.000	0.972	56985	2
774.000	0.972	56989	4
775.000	0.972	56991	2
778.000	0.972	56992	1
780.000	0.972	56995	3
781.000	0.972	56998	3
782.000	0.972	57003	5
783.000	0.972	57005	2
784.000	0.972	57008	3
785.000	0.972	57010	2
788.000	0.972	57013	3
789.000	0.972	57017	4
790.000	0.972	57019	2
792.000	0.972	57022	3
794.000	0.972	57023	1
795.000	0.972	57027	4
796.000	0.972	57030	3
797.000	0.972	57033	3
798.000	0.972	57034	1
799.000	0.972	57036	2
800.000	0.972	57038	2
801.000	0.972	57040	2
802.000	0.973	57043	3
804.000	0.973	57045	2
805.000	0.973	57047	2
806.000	0.973	57049	2
808.000	0.973	57050	1
809.000	0.973	57054	4
810.000	0.973	57057	3
811.000	0.973	57058	1
813.000	0.973	57059	1
814.000	0.973	57061	2
815.000	0.973	57063	2
816.000	0.973	57064	1
817.000	0.973	57066	2
818.000	0.973	57068	2
819.000	0.973	57069	1
820.000	0.973	57071	2
822.000	0.973	57072	1
823.000	0.973	57075	3
824.000	0.973	57078	3
825.000	0.973	57081	3
826.000	0.973	57083	2
827.000	0.973	57085	2
828.000	0.973	57087	2
829.000	0.973	57089	2
830.000	0.973	57096	7
831.000	0.973	57099	3
832.000	0.974	57101	2
833.000	0.974	57103	2
834.000	0.974	57105	2
835.000	0.974	57107	2
836.000	0.974	57108	1
837.000	0.974	57109	1
838.000	0.974	57111	2
839.000	0.974	57113	2
840.000	0.974	57116	3
841.000	0.974	57118	2
842.000	0.974	57121	3
843.000	0.974	57123	2
846.000	0.974	57125	2
848.000	0.974	57130	5
850.000	0.974	57131	1
851.000	0.974	57133	2
853.000	0.974	57138	5
854.000	0.974	57139	1
855.000	0.974	57140	1
856.000	0.974	57141	1
857.000	0.974	57142	1
858.000	0.974	57145	3
859.000	0.974	57147	2
860.000	0.974	57148	1
861.000	0.974	57149	1
862.000	0.974	57152	3
863.000	0.974	57156	4
864.000	0.974	57157	1
865.000	0.974	57158	1
867.000	0.975	57159	1
868.000	0.975	57161	2
869.000	0.975	57162	1
871.000	0.975	57163	1
872.000	0.975	57164	1
873.000	0.975	57165	1
875.000	0.975	57168	3
876.000	0.975	57169	1
877.000	0.975	57172	3
878.000	0.975	57176	4
879.000	0.975	57179	3
880.000	0.975	57180	1
882.000	0.975	57182	2
883.000	0.975	57183	1
886.000	0.975	57186	3
887.000	0.975	57187	1
888.000	0.975	57189	2
889.000	0.975	57191	2
890.000	0.975	57193	2
891.000	0.975	57194	1
893.000	0.975	57197	3
894.000	0.975	57198	1
895.000	0.975	57200	2
896.000	0.975	57202	2
897.000	0.975	57206	4
898.000	0.975	57207	1
900.000	0.975	57210	3
901.000	0.975	57211	1
902.000	0.975	57214	3
904.000	0.975	57215	1
906.000	0.975	57216	1
907.000	0.976	57219	3
910.000	0.976	57220	1
911.000	0.976	57223	3
912.000	0.976	57224	1
913.000	0.976	57227	3
914.000	0.976	57229	2
915.000	0.976	57230	1
916.000	0.976	57231	1
917.000	0.976	57232	1
918.000	0.976	57233	1
919.000	0.976	57236	3
921.000	0.976	57239	3
923.000	0.976	57240	1
924.000	0.976	57241	1
925.000	0.976	57243	2
927.000	0.976	57245	2
929.000	0.976	57246	1
930.000	0.976	57249	3
931.000	0.976	57250	1
932.000	0.976	57251	1
933.000	0.976	57252	1
934.000	0.976	57253	1
935.000	0.976	57254	1
936.000	0.976	57255	1
937.000	0.976	57257	2
938.000	0.976	57259	2
939.000	0.976	57262	3
941.000	0.976	57263	1
942.000	0.976	57265	2
944.000	0.976	57266	1
945.000	0.976	57269	3
946.000	0.976	57271	2
948.000	0.976	57273	2
949.000	0.976	57275	2
950.000	0.977	57279	4
951.000	0.977	57280	1
954.000	0.977	57281	1
955.000	0.977	57283	2
956.000	0.977	57284	1
958.000	0.977	57286	2
959.000	0.977	57289	3
960.000	0.977	57290	1
961.000	0.977	57292	2
962.000	0.977	57293	1
963.000	0.977	57294	1
964.000	0.977	57296	2
965.000	0.977	57297	1
966.000	0.977	57298	1
967.000	0.977	57302	4
969.000	0.977	57303	1
972.000	0.977	57306	3
973.000	0.977	57309	3
975.000	0.977	57310	1
976.000	0.977	57312	2
977.000	0.977	57313	1
978.000	0.977	57314	1
979.000	0.977	57315	1
980.000	0.977	57316	1
981.000	0.977	57317	1
982.000	0.977	57318	1
983.000	0.977	57321	3
984.000	0.977	57322	1
985.000	0.977	57323	1
986.000	0.977	57325	2
987.000	0.977	57326	1
988.000	0.977	57327	1
989.000	0.977	57329	2
992.000	0.977	57330	1
993.000	0.977	57333	3
994.000	0.977	57334	1
995.000	0.978	57338	4
996.000	0.978	57339	1
998.000	0.978	57340	1
999.000	0.978	57344	4
1000.000	0.978	57347	3
1001.000	0.978	57350	3
1002.000	0.978	57351	1
1004.000	0.978	57353	2
1005.000	0.978	57355	2
1006.000	0.978	57356	1
1007.000	0.978	57357	1
1011.000	0.978	57360	3
1016.000	0.978	57361	1
1017.000	0.978	57362	1
1018.000	0.978	57363	1
1020.000	0.978	57364	1
1022.000	0.978	57366	2
1023.000	0.978	57369	3
1025.000	0.978	57370	1
1028.000	0.978	57373	3
1029.000	0.978	57375	2
1030.000	0.978	57377	2
1031.000	0.978	57378	1
1032.000	0.978	57379	1
1033.000	0.978	57380	1
1035.000	0.978	57381	1
1036.000	0.978	57384	3
1040.000	0.978	57386	2
1041.000	0.978	57387	1
1042.000	0.978	57388	1
1043.000	0.978	57390	2
1044.000	0.978	57391	1
1045.000	0.979	57396	5
1048.000	0.979	57397	1
1050.000	0.979	57400	3
1052.000	0.979	57401	1
1053.000	0.979	57402	1
1054.000	0.979	57404	2
1055.000	0.979	57409	5
1056.000	0.979	57410	1
1057.000	0.979	57412	2
1058.000	0.979	57414	2
1060.000	0.979	57417	3
1061.000	0.979	57420	3
1062.000	0.979	57424	4
1063.000	0.979	57426	2
1064.000	0.979	57427	1
1065.000	0.979	57428	1
1067.000	0.979	57430	2
1068.000	0.979	57431	1
1069.000	0.979	57434	3
1070.000	0.979	57435	1
1071.000	0.979	57437	2
1072.000	0.979	57439	2
1073.000	0.979	57441	2
1074.000	0.979	57442	1
1077.000	0.979	57443	1
1078.000	0.979	57444	1
1079.000	0.979	57445	1
1080.000	0.979	57446	1
1081.000	0.979	57447	1
1082.000	0.979	57448	1
1083.000	0.979	57449	1
1084.000	0.980	57453	4
1085.000	0.980	57455	2
1087.000	0.980	57456	1
1089.000	0.980	57459	3
1090.000	0.980	57461	2
1093.000	0.980	57462	1
1094.000	0.980	57463	1
1096.000	0.980	57464	1
1100.000	0.980	57465	1
1103.000	0.980	57466	1
1104.000	0.980	57468	2
1105.000	0.980	57469	1
1106.000	0.980	57470	1
1109.000	0.980	57473	3
1111.000	0.980	57474	1
1112.000	0.980	57475	1
1113.000	0.980	57476	1
1114.000	0.980	57477	1
1115.000	0.980	57480	3
1116.000	0.980	57481	1
1118.000	0.980	57484	3
1120.000	0.980	57486	2
1123.000	0.980	57488	2
1124.000	0.980	57490	2
1125.000	0.980	57491	1
1128.000	0.980	57492	1
1131.000	0.980	57493	1
1132.000	0.980	57494	1
1135.000	0.980	57495	1
1139.000	0.980	57496	1
1140.000	0.980	57498	2
1141.000	0.980	57499	1
1143.000	0.980	57501	2
1144.000	0.980	57502	1
1145.000	0.980	57503	1
1146.000	0.980	57504	1
1148.000	0.980	57505	1
1149.000	0.980	57507	2
1150.000	0.980	57508	1
1152.000	0.980	57509	1
1155.000	0.980	57510	1
1156.000	0.981	57511	1
1159.000	0.981	57512	1
1164.000	0.981	57513	1
1165.000	0.981	57514	1
1166.000	0.981	57515	1
1169.000	0.981	57516	1
1171.000	0.981	57517	1
1172.000	0.981	57518	1
1174.000	0.981	57519	1
1175.000	0.981	57520	1
1176.000	0.981	57521	1
1178.000	0.981	57523	2
1179.000	0.981	57525	2
1181.000	0.981	57526	1
1182.000	0.981	57527	1
1183.000	0.981	57528	1
1185.000	0.981	57530	2
1186.000	0.981	57531	1
1191.000	0.981	57532	1
1192.000	0.981	57533	1
1193.000	0.981	57534	1
1194.000	0.981	57536	2
1195.000	0.981	57537	1
1196.000	0.981	57538	1
1198.000	0.981	57539	1
1199.000	0.981	57541	2
1200.000	0.981	57542	1
1201.000	0.981	57543	1
1202.000	0.981	57544	1
1204.000	0.981	57546	2
1207.000	0.981	57547	1
1208.000	0.981	57548	1
1209.000	0.981	57549	1
1212.000	0.981	57550	1
1213.000	0.981	57552	2
1215.000	0.981	57553	1
1216.000	0.981	57555	2
1217.000	0.981	57557	2
1218.000	0.981	57559	2
1219.000	0.981	57560	1
1220.000	0.981	57561	1
1221.000	0.981	57562	1
1222.000	0.981	57563	1
1224.000	0.981	57564	1
1225.000	0.981	57565	1
1227.000	0.981	57567	2
1228.000	0.982	57569	2
1229.000	0.982	57570	1
1231.000	0.982	57571	1
1232.000	0.982	57572	1
1233.000	0.982	57573	1
1234.000	0.982	57574	1
1236.000	0.982	57575	1
1237.000	0.982	57576	1
1238.000	0.982	57577	1
1239.000	0.982	57579	2
1241.000	0.982	57580	1
1243.000	0.982	57581	1
1244.000	0.982	57582	1
1245.000	0.982	57583	1
1247.000	0.982	57584	1
1248.000	0.982	57586	2
1249.000	0.982	57588	2
1254.000	0.982	57589	1
1257.000	0.982	57590	1
1258.000	0.982	57593	3
1259.000	0.982	57594	1
1261.000	0.982	57595	1
1262.000	0.982	57596	1
1264.000	0.982	57597	1
1265.000	0.982	57598	1
1268.000	0.982	57599	1
1270.000	0.982	57600	1
1271.000	0.982	57602	2
1273.000	0.982	57604	2
1274.000	0.982	57605	1
1277.000	0.982	57606	1
1279.000	0.982	57607	1
1281.000	0.982	57609	2
1282.000	0.982	57610	1
1288.000	0.982	57611	1
1290.000	0.982	57613	2
1291.000	0.982	57615	2
1294.000	0.982	57617	2
1297.000	0.982	57618	1
1299.000	0.982	57619	1
1302.000	0.982	57620	1
1306.000	0.982	57622	2
1307.000	0.982	57623	1
1309.000	0.982	57624	1
1312.000	0.982	57625	1
1313.000	0.982	57626	1
1314.000	0.982	57627	1
1316.000	0.983	57628	1
1317.000	0.983	57629	1
1318.000	0.983	57630	1
1319.000	0.983	57631	1
1321.000	0.983	57634	3
1322.000	0.983	57635	1
1325.000	0.983	57636	1
1326.000	0.983	57639	3
1331.000	0.983	57641	2
1333.000	0.983	57642	1
1338.000	0.983	57643	1
1341.000	0.983	57644	1
1342.000	0.983	57646	2
1348.000	0.983	57647	1
1352.000	0.983	57648	1
1353.000	0.983	57649	1
1357.000	0.983	57650	1
1361.000	0.983	57651	1
1362.000	0.983	57653	2
1364.000	0.983	57654	1
1367.000	0.983	57655	1
1368.000	0.983	57657	2
1369.000	0.983	57658	1
1372.000	0.983	57659	1
1379.000	0.983	57662	3
1382.000	0.983	57663	1
1383.000	0.983	57665	2
1385.000	0.983	57666	1
1386.000	0.983	57667	1
1387.000	0.983	57669	2
1389.000	0.983	57670	1
1390.000	0.983	57672	2
1391.000	0.983	57673	1
1396.000	0.983	57674	1
1397.000	0.983	57675	1
1400.000	0.983	57676	1
1404.000	0.983	57677	1
1405.000	0.983	57678	1
1408.000	0.983	57679	1
1411.000	0.983	57680	1
1412.000	0.983	57681	1
1413.000	0.983	57682	1
1414.000	0.983	57683	1
1417.000	0.983	57684	1
1419.000	0.983	57685	1
1421.000	0.984	57687	2
1422.000	0.984	57690	3
1423.000	0.984	57692	2
1425.000	0.984	57693	1
1428.000	0.984	57694	1
1429.000	0.984	57697	3
1434.000	0.984	57699	2
1436.000	0.984	57702	3
1437.000	0.984	57703	1
1438.000	0.984	57704	1
1439.000	0.984	57705	1
1443.000	0.984	57706	1
1446.000	0.984	57707	1
1456.000	0.984	57708	1
1457.000	0.984	57709	1
1459.000	0.984	57710	1
1461.000	0.984	57712	2
1467.000	0.984	57714	2
1469.000	0.984	57715	1
1471.000	0.984	57716	1
1472.000	0.984	57717	1
1475.000	0.984	57719	2
1477.000	0.984	57720	1
1479.000	0.984	57721	1
1481.000	0.984	57722	1
1482.000	0.984	57724	2
1483.000	0.984	57726	2
1485.000	0.984	57727	1
1488.000	0.984	57728	1
1489.000	0.984	57729	1
1490.000	0.984	57730	1
1491.000	0.984	57731	1
1492.000	0.984	57732	1
1494.000	0.984	57733	1
1497.000	0.984	57734	1
1500.000	0.984	57736	2
1503.000	0.984	57737	1
1504.000	0.984	57739	2
1511.000	0.984	57741	2
1513.000	0.984	57742	1
1516.000	0.984	57744	2
1517.000	0.985	57746	2
1518.000	0.985	57747	1
1519.000	0.985	57750	3
1520.000	0.985	57751	1
1521.000	0.985	57752	1
1523.000	0.985	57753	1
1527.000	0.985	57754	1
1528.000	0.985	57755	1
1529.000	0.985	57757	2
1530.000	0.985	57759	2
1531.000	0.985	57761	2
1535.000	0.985	57762	1
1538.000	0.985	57763	1
1540.000	0.985	57765	2
1542.000	0.985	57767	2
1546.000	0.985	57768	1
1547.000	0.985	57769	1
1548.000	0.985	57770	1
1553.000	0.985	57771	1
1556.000	0.985	57773	2
1558.000	0.985	57774	1
1567.000	0.985	57776	2
1568.000	0.985	57778	2
1569.000	0.985	57779	1
1577.000	0.985	57780	1
1579.000	0.985	57781	1
1580.000	0.985	57782	1
1581.000	0.985	57783	1
1583.000	0.985	57784	1
1585.000	0.985	57785	1
1587.000	0.985	57786	1
1589.000	0.985	57787	1
1593.000	0.985	57789	2
1594.000	0.985	57790	1
1595.000	0.985	57791	1
1598.000	0.985	57793	2
1600.000	0.985	57798	5
1604.000	0.985	57799	1
1605.000	0.985	57800	1
1606.000	0.985	57801	1
1608.000	0.985	57802	1
1612.000	0.986	57804	2
1615.000	0.986	57805	1
1616.000	0.986	57806	1
1617.000	0.986	57807	1
1619.000	0.986	57808	1
1620.000	0.986	57811	3
1622.000	0.986	57812	1
1625.000	0.986	57815	3
1628.000	0.986	57816	1
1629.000	0.986	57817	1
1630.000	0.986	57818	1
1631.000	0.986	57819	1
1634.000	0.986	57820	1
1635.000	0.986	57821	1
1636.000	0.986	57822	1
1637.000	0.986	57823	1
1638.000	0.986	57825	2
1641.000	0.986	57827	2
1642.000	0.986	57829	2
1646.000	0.986	57830	1
1650.000	0.986	57831	1
1651.000	0.986	57832	1
1654.000	0.986	57833	1
1656.000	0.986	57834	1
1666.000	0.986	57835	1
1668.000	0.986	57836	1
1670.000	0.986	57837	1
1674.000	0.986	57838	1
1675.000	0.986	57839	1
1677.000	0.986	57840	1
1681.000	0.986	57841	1
1683.000	0.986	57842	1
1684.000	0.986	57844	2
1686.000	0.986	57845	1
1687.000	0.986	57846	1
1691.000	0.986	57848	2
1692.000	0.986	57849	1
1697.000	0.986	57850	1
1700.000	0.986	57851	1
1703.000	0.986	57852	1
1704.000	0.986	57853	1
1706.000	0.986	57854	1
1708.000	0.986	57855	1
1709.000	0.986	57857	2
1712.000	0.986	57858	1
1713.000	0.986	57859	1
1716.000	0.986	57860	1
1720.000	0.986	57862	2
1725.000	0.987	57863	1
1727.000	0.987	57864	1
1733.000	0.987	57865	1
1734.000	0.987	57866	1
1739.000	0.987	57867	1
1743.000	0.987	57870	3
1744.000	0.987	57873	3
1746.000	0.987	57874	1
1750.000	0.987	57876	2
1754.000	0.987	57877	1
1755.000	0.987	57878	1
1757.000	0.987	57879	1
1758.000	0.987	57880	1
1760.000	0.987	57881	1
1763.000	0.987	57882	1
1767.000	0.987	57883	1
1771.000	0.987	57884	1
1773.000	0.987	57885	1
1777.000	0.987	57886	1
1779.000	0.987	57887	1
1780.000	0.987	57888	1
1786.000	0.987	57890	2
1792.000	0.987	57891	1
1794.000	0.987	57892	1
1798.000	0.987	57893	1
1809.000	0.987	57894	1
1813.000	0.987	57895	1
1820.000	0.987	57896	1
1821.000	0.987	57897	1
1823.000	0.987	57898	1
1824.000	0.987	57899	1
1826.000	0.987	57900	1
1827.000	0.987	57902	2
1832.000	0.987	57903	1
1833.000	0.987	57904	1
1834.000	0.987	57905	1
1836.000	0.987	57906	1
1839.000	0.987	57907	1
1843.000	0.987	57908	1
1849.000	0.987	57909	1
1853.000	0.987	57910	1
1854.000	0.987	57911	1
1856.000	0.987	57912	1
1858.000	0.987	57913	1
1862.000	0.987	57914	1
1863.000	0.987	57915	1
1864.000	0.987	57916	1
1869.000	0.987	57917	1
1872.000	0.987	57918	1
1873.000	0.987	57919	1
1874.000	0.987	57920	1
1875.000	0.988	57921	1
1876.000	0.988	57922	1
1877.000	0.988	57923	1
1887.000	0.988	57924	1
1888.000	0.988	57925	1
1889.000	0.988	57926	1
1890.000	0.988	57927	1
1894.000	0.988	57928	1
1904.000	0.988	57929	1
1905.000	0.988	57930	1
1915.000	0.988	57931	1
1916.000	0.988	57932	1
1923.000	0.988	57933	1
1925.000	0.988	57934	1
1927.000	0.988	57936	2
1930.000	0.988	57937	1
1932.000	0.988	57938	1
1939.000	0.988	57939	1
1940.000	0.988	57940	1
1946.000	0.988	57941	1
1955.000	0.988	57942	1
1964.000	0.988	57943	1
1966.000	0.988	57944	1
1976.000	0.988	57945	1
1982.000	0.988	57946	1
1986.000	0.988	57948	2
1991.000	0.988	57949	1
1994.000	0.988	57950	1
1995.000	0.988	57951	1
1998.000	0.988	57952	1
2005.000	0.988	57953	1
2006.000	0.988	57955	2
2017.000	0.988	57956	1
2028.000	0.988	57957	1
2029.000	0.988	57958	1
2031.000	0.988	57959	1
2038.000	0.988	57960	1
2043.000	0.988	57961	1
2045.000	0.988	57962	1
2047.000	0.988	57963	1
2050.000	0.988	57964	1
2051.000	0.988	57965	1
2055.000	0.988	57966	1
2057.000	0.988	57967	1
2060.000	0.988	57968	1
2061.000	0.988	57969	1
2065.000	0.988	57971	2
2068.000	0.988	57972	1
2073.000	0.988	57973	1
2075.000	0.988	57974	1
2083.000	0.988	57975	1
2084.000	0.988	57976	1
2085.000	0.988	57978	2
2086.000	0.988	57979	1
2087.000	0.989	57980	1
2088.000	0.989	57981	1
2091.000	0.989	57982	1
2096.000	0.989	57983	1
2101.000	0.989	57987	4
2108.000	0.989	57989	2
2110.000	0.989	57990	1
2116.000	0.989	57991	1
2121.000	0.989	57992	1
2129.000	0.989	57993	1
2130.000	0.989	57994	1
2137.000	0.989	57995	1
2141.000	0.989	57996	1
2142.000	0.989	57998	2
2143.000	0.989	57999	1
2147.000	0.989	58000	1
2148.000	0.989	58003	3
2149.000	0.989	58004	1
2151.000	0.989	58005	1
2152.000	0.989	58006	1
2157.000	0.989	58007	1
2164.000	0.989	58008	1
2168.000	0.989	58009	1
2170.000	0.989	58010	1
2172.000	0.989	58011	1
2183.000	0.989	58012	1
2184.000	0.989	58013	1
2188.000	0.989	58014	1
2192.000	0.989	58015	1
2197.000	0.989	58016	1
2201.000	0.989	58017	1
2203.000	0.989	58019	2
2206.000	0.989	58021	2
2209.000	0.989	58023	2
2213.000	0.989	58024	1
2230.000	0.989	58025	1
2239.000	0.989	58026	1
2240.000	0.989	58027	1
2244.000	0.989	58028	1
2245.000	0.989	58029	1
2249.000	0.989	58030	1
2256.000	0.989	58031	1
2257.000	0.989	58032	1
2258.000	0.989	58033	1
2262.000	0.989	58034	1
2265.000	0.989	58035	1
2272.000	0.989	58036	1
2280.000	0.989	58037	1
2282.000	0.989	58038	1
2286.000	0.990	58039	1
2288.000	0.990	58040	1
2289.000	0.990	58041	1
2290.000	0.990	58043	2
2292.000	0.990	58044	1
2296.000	0.990	58045	1
2298.000	0.990	58046	1
2300.000	0.990	58047	1
2301.000	0.990	58048	1
2310.000	0.990	58050	2
2312.000	0.990	58051	1
2316.000	0.990	58053	2
2318.000	0.990	58054	1
2324.000	0.990	58055	1
2329.000	0.990	58057	2
2331.000	0.990	58058	1
2334.000	0.990	58059	1
2338.000	0.990	58060	1
2339.000	0.990	58061	1
2343.000	0.990	58062	1
2355.000	0.990	58063	1
2357.000	0.990	58064	1
2358.000	0.990	58065	1
2361.000	0.990	58067	2
2362.000	0.990	58068	1
2364.000	0.990	58069	1
2367.000	0.990	58070	1
2369.000	0.990	58071	1
2370.000	0.990	58072	1
2372.000	0.990	58074	2
2374.000	0.990	58075	1
2377.000	0.990	58076	1
2378.000	0.990	58077	1
2382.000	0.990	58078	1
2388.000	0.990	58079	1
2393.000	0.990	58080	1
2395.000	0.990	58081	1
2398.000	0.990	58082	1
2399.000	0.990	58083	1
2402.000	0.990	58084	1
2403.000	0.990	58085	1
2414.000	0.990	58086	1
2416.000	0.990	58087	1
2418.000	0.990	58088	1
2420.000	0.990	58089	1
2421.000	0.990	58090	1
2429.000	0.990	58091	1
2430.000	0.990	58092	1
2431.000	0.990	58093	1
2432.000	0.990	58094	1
2434.000	0.990	58096	2
2437.000	0.991	58097	1
2442.000	0.991	58099	2
2443.000	0.991	58100	1
2452.000	0.991	58101	1
2453.000	0.991	58102	1
2470.000	0.991	58103	1
2472.000	0.991	58104	1
2474.000	0.991	58105	1
2475.000	0.991	58106	1
2476.000	0.991	58107	1
2483.000	0.991	58109	2
2484.000	0.991	58110	1
2485.000	0.991	58111	1
2487.000	0.991	58112	1
2488.000	0.991	58113	1
2489.000	0.991	58114	1
2493.000	0.991	58115	1
2495.000	0.991	58117	2
2505.000	0.991	58118	1
2506.000	0.991	58119	1
2518.000	0.991	58120	1
2521.000	0.991	58121	1
2523.000	0.991	58123	2
2525.000	0.991	58124	1
2534.000	0.991	58125	1
2548.000	0.991	58126	1
2551.000	0.991	58127	1
2556.000	0.991	58128	1
2558.000	0.991	58129	1
2561.000	0.991	58131	2
2565.000	0.991	58132	1
2567.000	0.991	58133	1
2584.000	0.991	58134	1
2597.000	0.991	58135	1
2607.000	0.991	58136	1
2609.000	0.991	58137	1
2610.000	0.991	58138	1
2619.000	0.991	58139	1
2623.000	0.991	58140	1
2627.000	0.991	58141	1
2631.000	0.991	58142	1
2636.000	0.991	58143	1
2644.000	0.991	58144	1
2653.000	0.991	58145	1
2664.000	0.991	58146	1
2682.000	0.991	58148	2
2687.000	0.991	58149	1
2692.000	0.991	58150	1
2694.000	0.991	58151	1
2697.000	0.991	58152	1
2703.000	0.991	58153	1
2704.000	0.991	58154	1
2706.000	0.991	58155	1
2712.000	0.992	58156	1
2716.000	0.992	58157	1
2723.000	0.992	58158	1
2734.000	0.992	58160	2
2737.000	0.992	58161	1
2740.000	0.992	58162	1
2743.000	0.992	58163	1
2748.000	0.992	58165	2
2755.000	0.992	58166	1
2758.000	0.992	58167	1
2763.000	0.992	58168	1
2770.000	0.992	58169	1
2771.000	0.992	58170	1
2776.000	0.992	58171	1
2798.000	0.992	58172	1
2799.000	0.992	58173	1
2814.000	0.992	58174	1
2820.000	0.992	58176	2
2826.000	0.992	58177	1
2835.000	0.992	58178	1
2838.000	0.992	58179	1
2854.000	0.992	58180	1
2868.000	0.992	58181	1
2872.000	0.992	58182	1
2873.000	0.992	58183	1
2882.000	0.992	58184	1
2885.000	0.992	58185	1
2888.000	0.992	58186	1
2897.000	0.992	58187	1
2902.000	0.992	58188	1
2916.000	0.992	58189	1
2917.000	0.992	58190	1
2928.000	0.992	58191	1
2934.000	0.992	58192	1
2938.000	0.992	58193	1
2941.000	0.992	58194	1
2950.000	0.992	58195	1
2958.000	0.992	58196	1
2974.000	0.992	58197	1
2981.000	0.992	58198	1
2986.000	0.992	58199	1
2989.000	0.992	58200	1
2993.000	0.992	58201	1
2998.000	0.992	58202	1
3010.000	0.992	58203	1
3016.000	0.992	58204	1
3027.000	0.992	58205	1
3029.000	0.992	58206	1
3031.000	0.992	58207	1
3033.000	0.992	58208	1
3043.000	0.992	58209	1
3048.000	0.992	58210	1
3052.000	0.992	58211	1
3062.000	0.992	58212	1
3067.000	0.992	58213	1
3073.000	0.992	58214	1
3077.000	0.993	58215	1
3079.000	0.993	58216	1
3085.000	0.993	58217	1
3097.000	0.993	58218	1
3099.000	0.993	58219	1
3101.000	0.993	58220	1
3104.000	0.993	58221	1
3107.000	0.993	58222	1
3111.000	0.993	58223	1
3119.000	0.993	58224	1
3121.000	0.993	58225	1
3123.000	0.993	58226	1
3126.000	0.993	58227	1
3131.000	0.993	58228	1
3136.000	0.993	58229	1
3162.000	0.993	58230	1
3171.000	0.993	58231	1
3173.000	0.993	58232	1
3174.000	0.993	58233	1
3189.000	0.993	58234	1
3200.000	0.993	58235	1
3201.000	0.993	58236	1
3206.000	0.993	58237	1
3218.000	0.993	58238	1
3221.000	0.993	58239	1
3227.000	0.993	58240	1
3234.000	0.993	58242	2
3235.000	0.993	58243	1
3251.000	0.993	58244	1
3252.000	0.993	58245	1
3260.000	0.993	58246	1
3262.000	0.993	58247	1
3268.000	0.993	58248	1
3290.000	0.993	58249	1
3299.000	0.993	58250	1
3302.000	0.993	58251	1
3314.000	0.993	58253	2
3319.000	0.993	58254	1
3334.000	0.993	58255	1
3337.000	0.993	58256	1
3339.000	0.993	58257	1
3372.000	0.993	58258	1
3385.000	0.993	58259	1
3400.000	0.993	58260	1
3412.000	0.993	58261	1
3438.000	0.993	58262	1
3453.000	0.993	58263	1
3465.000	0.993	58264	1
3469.000	0.993	58265	1
3490.000	0.993	58266	1
3493.000	0.993	58267	1
3497.000	0.993	58268	1
3498.000	0.993	58269	1
3499.000	0.993	58270	1
3500.000	0.993	58271	1
3510.000	0.993	58272	1
3544.000	0.994	58273	1
3546.000	0.994	58274	1
3549.000	0.994	58275	1
3557.000	0.994	58276	1
3569.000	0.994	58277	1
3573.000	0.994	58278	1
3584.000	0.994	58279	1
3585.000	0.994	58280	1
3592.000	0.994	58281	1
3605.000	0.994	58282	1
3610.000	0.994	58283	1
3639.000	0.994	58284	1
3641.000	0.994	58285	1
3648.000	0.994	58286	1
3652.000	0.994	58287	1
3668.000	0.994	58288	1
3672.000	0.994	58289	1
3673.000	0.994	58290	1
3681.000	0.994	58291	1
3693.000	0.994	58292	1
3695.000	0.994	58293	1
3700.000	0.994	58294	1
3706.000	0.994	58295	1
3719.000	0.994	58296	1
3732.000	0.994	58297	1
3735.000	0.994	58298	1
3747.000	0.994	58299	1
3760.000	0.994	58300	1
3765.000	0.994	58301	1
3770.000	0.994	58302	1
3788.000	0.994	58303	1
3830.000	0.994	58304	1
3840.000	0.994	58305	1
3843.000	0.994	58306	1
3851.000	0.994	58307	1
3862.000	0.994	58308	1
3894.000	0.994	58310	2
3907.000	0.994	58311	1
3909.000	0.994	58312	1
3927.000	0.994	58313	1
3948.000	0.994	58314	1
3957.000	0.994	58315	1
3971.000	0.994	58316	1
3983.000	0.994	58317	1
3990.000	0.994	58318	1
4001.000	0.994	58319	1
4006.000	0.994	58320	1
4012.000	0.994	58321	1
4016.000	0.994	58322	1
4020.000	0.994	58323	1
4035.000	0.994	58324	1
4039.000	0.994	58325	1
4041.000	0.994	58326	1
4063.000	0.994	58327	1
4064.000	0.994	58328	1
4093.000	0.994	58329	1
4148.000	0.994	58330	1
4152.000	0.994	58331	1
4187.000	0.995	58332	1
4207.000	0.995	58333	1
4228.000	0.995	58334	1
4241.000	0.995	58335	1
4252.000	0.995	58336	1
4263.000	0.995	58337	1
4265.000	0.995	58338	1
4288.000	0.995	58339	1
4306.000	0.995	58340	1
4330.000	0.995	58341	1
4339.000	0.995	58342	1
4343.000	0.995	58343	1
4351.000	0.995	58344	1
4371.000	0.995	58345	1
4403.000	0.995	58346	1
4411.000	0.995	58347	1
4419.000	0.995	58348	1
4441.000	0.995	58349	1
4469.000	0.995	58350	1
4517.000	0.995	58351	1
4523.000	0.995	58352	1
4570.000	0.995	58353	1
4573.000	0.995	58354	1
4574.000	0.995	58355	1
4584.000	0.995	58356	1
4617.000	0.995	58357	1
4651.000	0.995	58358	1
4672.000	0.995	58359	1
4674.000	0.995	58360	1
4740.000	0.995	58361	1
4751.000	0.995	58363	2
4761.000	0.995	58364	1
4788.000	0.995	58365	1
4811.000	0.995	58366	1
4856.000	0.995	58367	1
4862.000	0.995	58368	1
4863.000	0.995	58369	1
4865.000	0.995	58370	1
4866.000	0.995	58372	2
4896.000	0.995	58373	1
4939.000	0.995	58374	1
4941.000	0.995	58375	1
4952.000	0.995	58376	1
4957.000	0.995	58377	1
4966.000	0.995	58378	1
5047.000	0.995	58379	1
5077.000	0.995	58380	1
5105.000	0.995	58381	1
5106.000	0.995	58382	1
5136.000	0.995	58383	1
5146.000	0.995	58384	1
5184.000	0.995	58385	1
5191.000	0.995	58386	1
5196.000	0.995	58387	1
5201.000	0.995	58388	1
5205.000	0.995	58389	1
5239.000	0.995	58390	1
5262.000	0.996	58391	1
5292.000	0.996	58392	1
5357.000	0.996	58393	1
5437.000	0.996	58394	1
5441.000	0.996	58395	1
5450.000	0.996	58396	1
5451.000	0.996	58397	1
5472.000	0.996	58398	1
5489.000	0.996	58399	1
5504.000	0.996	58400	1
5505.000	0.996	58401	1
5541.000	0.996	58402	1
5575.000	0.996	58403	1
5579.000	0.996	58404	1
5581.000	0.996	58405	1
5604.000	0.996	58406	1
5606.000	0.996	58407	1
5612.000	0.996	58408	1
5643.000	0.996	58409	1
5669.000	0.996	58410	1
5671.000	0.996	58411	1
5682.000	0.996	58412	1
5727.000	0.996	58413	1
5879.000	0.996	58414	1
5892.000	0.996	58415	1
5910.000	0.996	58416	1
5932.000	0.996	58417	1
6050.000	0.996	58418	1
6118.000	0.996	58419	1
6205.000	0.996	58420	1
6289.000	0.996	58421	1
6305.000	0.996	58422	1
6334.000	0.996	58423	1
6383.000	0.996	58424	1
6410.000	0.996	58425	1
6422.000	0.996	58426	1
6445.000	0.996	58428	2
6492.000	0.996	58429	1
6516.000	0.996	58430	1
6518.000	0.996	58431	1
6520.000	0.996	58432	1
6604.000	0.996	58433	1
6656.000	0.996	58434	1
6659.000	0.996	58435	1
6685.000	0.996	58436	1
6704.000	0.996	58437	1
6758.000	0.996	58438	1
6793.000	0.996	58440	2
6950.000	0.996	58441	1
7002.000	0.996	58442	1
7011.000	0.996	58443	1
7025.000	0.996	58444	1
7062.000	0.996	58445	1
7098.000	0.996	58446	1
7141.000	0.996	58447	1
7166.000	0.996	58448	1
7186.000	0.997	58449	1
7250.000	0.997	58450	1
7281.000	0.997	58451	1
7378.000	0.997	58452	1
7381.000	0.997	58453	1
7403.000	0.997	58454	1
7418.000	0.997	58455	1
7451.000	0.997	58456	1
7495.000	0.997	58457	1
7508.000	0.997	58458	1
7544.000	0.997	58459	1
7585.000	0.997	58460	1
7596.000	0.997	58461	1
7609.000	0.997	58462	1
7653.000	0.997	58463	1
7756.000	0.997	58464	1
7826.000	0.997	58465	1
7904.000	0.997	58466	1
8011.000	0.997	58467	1
8331.000	0.997	58468	1
8392.000	0.997	58469	1
8568.000	0.997	58470	1
8571.000	0.997	58471	1
8632.000	0.997	58472	1
8637.000	0.997	58473	1
8687.000	0.997	58474	1
8780.000	0.997	58475	1
8804.000	0.997	58476	1
8840.000	0.997	58477	1
8848.000	0.997	58478	1
8899.000	0.997	58479	1
8969.000	0.997	58480	1
9059.000	0.997	58481	1
9067.000	0.997	58482	1
9080.000	0.997	58483	1
9086.000	0.997	58484	1
9161.000	0.997	58485	1
9184.000	0.997	58486	1
9309.000	0.997	58487	1
9393.000	0.997	58488	1
9394.000	0.997	58489	1
9444.000	0.997	58490	1
9465.000	0.997	58491	1
9473.000	0.997	58492	1
9552.000	0.997	58493	1
9562.000	0.997	58494	1
9717.000	0.997	58495	1
9741.000	0.997	58496	1
9788.000	0.997	58497	1
9829.000	0.997	58498	1
9845.000	0.997	58499	1
9957.000	0.997	58500	1
9977.000	0.997	58501	1
9983.000	0.997	58502	1
10076.000	0.997	58503	1
10087.000	0.997	58504	1
10134.000	0.997	58505	1
10173.000	0.997	58506	1
10273.000	0.998	58508	2
10380.000	0.998	58509	1
10398.000	0.998	58510	1
10420.000	0.998	58511	1
10544.000	0.998	58512	1
10599.000	0.998	58513	1
10611.000	0.998	58514	1
10627.000	0.998	58515	1
10779.000	0.998	58516	1
10834.000	0.998	58517	1
10868.000	0.998	58518	1
10933.000	0.998	58519	1
10934.000	0.998	58520	1
11166.000	0.998	58521	1
11172.000	0.998	58522	1
11190.000	0.998	58523	1
11275.000	0.998	58524	1
11283.000	0.998	58525	1
11341.000	0.998	58526	1
11459.000	0.998	58527	1
11535.000	0.998	58528	1
11709.000	0.998	58529	1
11935.000	0.998	58530	1
11995.000	0.998	58531	1
12155.000	0.998	58532	1
12295.000	0.998	58533	1
12321.000	0.998	58534	1
12344.000	0.998	58535	1
12891.000	0.998	58536	1
12982.000	0.998	58537	1
13221.000	0.998	58538	1
13231.000	0.998	58539	1
13415.000	0.998	58540	1
13512.000	0.998	58541	1
13811.000	0.998	58542	1
14034.000	0.998	58543	1
14120.000	0.998	58544	1
14178.000	0.998	58545	1
14228.000	0.998	58546	1
14316.000	0.998	58547	1
14579.000	0.998	58548	1
14884.000	0.998	58549	1
15064.000	0.998	58550	1
15202.000	0.998	58551	1
15241.000	0.998	58552	1
15265.000	0.998	58553	1
15343.000	0.998	58554	1
15452.000	0.998	58555	1
15942.000	0.998	58556	1
16065.000	0.998	58557	1
16274.000	0.998	58558	1
16299.000	0.998	58559	1
16305.000	0.998	58560	1
16434.000	0.998	58561	1
16493.000	0.998	58562	1
16608.000	0.998	58563	1
16885.000	0.998	58564	1
17123.000	0.998	58565	1
17266.000	0.998	58566	1
17357.000	0.999	58567	1
17555.000	0.999	58568	1
17565.000	0.999	58569	1
17697.000	0.999	58570	1
17783.000	0.999	58571	1
17985.000	0.999	58572	1
18412.000	0.999	58573	1
18692.000	0.999	58574	1
19588.000	0.999	58575	1
19626.000	0.999	58576	1
19953.000	0.999	58577	1
20038.000	0.999	58578	1
20087.000	0.999	58579	1
20128.000	0.999	58580	1
20760.000	0.999	58581	1
20873.000	0.999	58582	1
21238.000	0.999	58583	1
22491.000	0.999	58584	1
23892.000	0.999	58585	1
24494.000	0.999	58586	1
25032.000	0.999	58587	1
25107.000	0.999	58588	1
25787.000	0.999	58589	1
26397.000	0.999	58590	1
27508.000	0.999	58591	1
27839.000	0.999	58592	1
28108.000	0.999	58593	1
28275.000	0.999	58594	1
28290.000	0.999	58595	1
28894.000	0.999	58596	1
29550.000	0.999	58597	1
29633.000	0.999	58598	1
30470.000	0.999	58599	1
32572.000	0.999	58600	1
32675.000	0.999	58601	1
33014.000	0.999	58602	1
34274.000	0.999	58603	1
34632.000	0.999	58604	1
35603.000	0.999	58605	1
35714.000	0.999	58606	1
36527.000	0.999	58607	1
36727.000	0.999	58608	1
36992.000	0.999	58609	1
37821.000	0.999	58610	1
38604.000	0.999	58611	1
42159.000	0.999	58612	1
44807.000	0.999	58613	1
46175.000	0.999	58614	1
46939.000	0.999	58615	1
47400.000	0.999	58616	1
47732.000	0.999	58617	1
48938.000	0.999	58618	1
48982.000	0.999	58619	1
49938.000	0.999	58620	1
50382.000	0.999	58621	1
55394.000	0.999	58622	1
58047.000	0.999	58623	1
60937.000	0.999	58624	1
61102.000	1.000	58625	1
62252.000	1.000	58626	1
63731.000	1.000	58627	1
70176.000	1.000	58628	1
72100.000	1.000	58629	1
73719.000	1.000	58630	1
74856.000	1.000	58631	1
74974.000	1.000	58632	1
74979.000	1.000	58633	1
75014.000	1.000	58634	1
75021.000	1.000	58635	1
75023.000	1.000	58636	1
75025.000	1.000	58637	1
75046.000	1.000	58639	2
75047.000	1.000	58640	1
75053.000	1.000	58641	1
75117.000	1.000	58642	1
78838.000	1.000	58643	1
92165.000	1.000	58644	1
101408.000	1.000	58645	1
108910.000	1.000	58646	1
109617.000	1.000	58647	1
123349.000	1.000	58648	1
147755.000	1.000	58649	1
149383.000	1.000	58650	1
149430.000	1.000	58651	1
149436.000	1.000	58652	1
149489.000	1.000	58653	1
149535.000	1.000	58654	1
